block,sid,trial,sample_stim,isi_condition,rule_type,A_stim,B_stim,A_prime,B_prime,rule_sequence,test_sequence,correct_next_stim,slot_mapping,correct_stim,response_key,response_slot,response_stim,correct,rt,isi1,isi2,isi3,isi4,isi5,iti,t_fixation,t_sample,t_delay,t_rule1,t_rule2,t_rule3,t_test1,t_test2,t_response
WM,c78c8ff0-6dc5-40b6-bbdc-d03e2c14a016,0,circle,1.0,,,,,,,,,"star,triangle,rectangle,circle",circle,4,4,circle,1,0.5481018999707885,,,,,,,6.396456899994519,6.905130100029055,7.412062900024466,,,,,,8.42898960004095
WM,c78c8ff0-6dc5-40b6-bbdc-d03e2c14a016,1,star,1.0,,,,,,,,,"star,circle,triangle,rectangle",star,1,1,star,1,0.46309169998858124,,,,,,,8.980254900001455,9.484905900026206,9.991169499990065,,,,,,11.001416900020558
WM,c78c8ff0-6dc5-40b6-bbdc-d03e2c14a016,2,star,1.0,,,,,,,,,"triangle,star,circle,rectangle",star,2,2,star,1,0.4777425000211224,,,,,,,11.49280569999246,12.000059300044086,12.506030399992596,,,,,,13.519293999997899
WM,c78c8ff0-6dc5-40b6-bbdc-d03e2c14a016,3,triangle,1.0,,,,,,,,,"star,circle,rectangle,triangle",triangle,4,4,triangle,1,0.4768591999891214,,,,,,,14.00037920003524,14.505705300020054,15.012428399990313,,,,,,16.0216078000376
WM,c78c8ff0-6dc5-40b6-bbdc-d03e2c14a016,4,star,1.0,,,,,,,,,"star,rectangle,circle,triangle",star,1,1,star,1,0.419150699977763,,,,,,,16.501942400005646,17.008477700001094,17.516295900044497,,,,,,18.526972500025295
WM,c78c8ff0-6dc5-40b6-bbdc-d03e2c14a016,5,triangle,1.0,,,,,,,,,"circle,triangle,rectangle,star",triangle,2,2,triangle,1,0.5109460999956354,,,,,,,18.949409699998796,19.455709200003184,19.96427810000023,,,,,,20.973594000039157
WM,c78c8ff0-6dc5-40b6-bbdc-d03e2c14a016,6,rectangle,1.0,,,,,,,,,"star,circle,rectangle,triangle",rectangle,,,,0,,,,,,,,21.48817800002871,21.993957400030922,22.499860700045247,,,,,,23.508289400022477
WM,c78c8ff0-6dc5-40b6-bbdc-d03e2c14a016,7,circle,2.5,,,,,,,,,"circle,triangle,star,rectangle",circle,1,1,circle,1,0.5067484999890439,,,,,,,25.512246700003743,26.017441800038796,26.522630400024354,,,,,,29.035685800015926
WM,c78c8ff0-6dc5-40b6-bbdc-d03e2c14a016,8,rectangle,1.0,,,,,,,,,"triangle,star,circle,rectangle",rectangle,4,4,rectangle,1,0.5728269999963231,,,,,,,29.545884200022556,30.05190640001092,30.55766799999401,,,,,,31.566815000027418
WM,c78c8ff0-6dc5-40b6-bbdc-d03e2c14a016,9,circle,1.0,,,,,,,,,"circle,rectangle,star,triangle",circle,1,1,circle,1,0.499528200016357,,,,,,,32.1441305000335,32.649447300005704,33.15560400002869,,,,,,34.16479240002809
WM,c78c8ff0-6dc5-40b6-bbdc-d03e2c14a016,10,circle,1.0,,,,,,,,,"rectangle,triangle,circle,star",circle,3,3,circle,1,0.45053610001923516,,,,,,,34.66762890003156,35.172805300040636,35.67908999999054,,,,,,36.685294300026726
WM,c78c8ff0-6dc5-40b6-bbdc-d03e2c14a016,11,star,2.5,,,,,,,,,"star,triangle,rectangle,circle",star,1,1,star,1,0.573915200016927,,,,,,,37.13920520001557,37.64569080004003,38.150651500036474,,,,,,40.659235100029036
WM,c78c8ff0-6dc5-40b6-bbdc-d03e2c14a016,12,circle,2.5,,,,,,,,,"triangle,circle,star,rectangle",circle,,,,0,,,,,,,,41.23624320002273,41.739860900037456,42.243962200009264,,,,,,44.75313860003371
WM,c78c8ff0-6dc5-40b6-bbdc-d03e2c14a016,13,rectangle,2.5,,,,,,,,,"rectangle,circle,star,triangle",rectangle,,,,0,,,,,,,,46.75636400002986,47.26396840001689,47.767851900018286,,,,,,50.276926500024274
WM,c78c8ff0-6dc5-40b6-bbdc-d03e2c14a016,14,rectangle,1.0,,,,,,,,,"circle,star,rectangle,triangle",rectangle,,,,0,,,,,,,,52.280103700002655,52.784435800043866,53.28936930000782,,,,,,54.30189810000593
WM,c78c8ff0-6dc5-40b6-bbdc-d03e2c14a016,15,triangle,2.5,,,,,,,,,"circle,triangle,rectangle,star",triangle,,,,0,,,,,,,,56.30480800004443,56.80976910004392,57.314481600013096,,,,,,59.82613290002337
WM,c78c8ff0-6dc5-40b6-bbdc-d03e2c14a016,16,rectangle,2.5,,,,,,,,,"rectangle,triangle,circle,star",rectangle,4,4,star,0,1.0192877000081353,,,,,,,61.82975350000197,62.33553949999623,62.84303119999822,,,,,,65.3533432999975
WM,c78c8ff0-6dc5-40b6-bbdc-d03e2c14a016,17,triangle,2.5,,,,,,,,,"triangle,star,rectangle,circle",triangle,4,4,circle,0,0.48177419998683035,,,,,,,66.3761014000047,66.87982080003712,67.38460140000097,,,,,,69.89594200003194
WM,c78c8ff0-6dc5-40b6-bbdc-d03e2c14a016,18,triangle,2.5,,,,,,,,,"star,rectangle,triangle,circle",triangle,4,4,circle,0,0.2816948000108823,,,,,,,70.38120360003086,70.88608990004286,71.3917119000107,,,,,,73.90117900003679
WM,c78c8ff0-6dc5-40b6-bbdc-d03e2c14a016,19,triangle,1.0,,,,,,,,,"star,triangle,rectangle,circle",triangle,4,4,circle,0,0.21772660000715405,,,,,,,74.18605519999983,74.69135919999098,75.19949520000955,,,,,,76.20927590003703
WM,c78c8ff0-6dc5-40b6-bbdc-d03e2c14a016,20,star,2.5,,,,,,,,,"rectangle,circle,triangle,star",star,4,4,star,1,0.10440270003164187,,,,,,,76.43038870004239,76.93744320003316,77.44560300000012,,,,,,79.95650550001301
WM,c78c8ff0-6dc5-40b6-bbdc-d03e2c14a016,21,rectangle,2.5,,,,,,,,,"circle,star,triangle,rectangle",rectangle,4,4,rectangle,1,0.1846837000339292,,,,,,,80.06420429999707,80.57042860001093,81.07634850003524,,,,,,83.58868280000752
WM,c78c8ff0-6dc5-40b6-bbdc-d03e2c14a016,22,star,2.5,,,,,,,,,"circle,star,rectangle,triangle",star,4,4,triangle,0,0.0316781000001356,,,,,,,83.77732630004175,84.28252350003459,84.7870879000402,,,,,,87.29905160004273
WM,c78c8ff0-6dc5-40b6-bbdc-d03e2c14a016,23,circle,2.5,,,,,,,,,"star,rectangle,circle,triangle",circle,4,4,triangle,0,0.07928330003051087,,,,,,,87.33592370001134,87.84254179999698,88.34886080003344,,,,,,90.85790970001835
main_run1,c78c8ff0-6dc5-40b6-bbdc-d03e2c14a016,0,,,ABA,triangle,rectangle,rectangle,star,"triangle,rectangle,triangle","rectangle,star",rectangle,"triangle,star,rectangle,circle",rectangle,3,3,rectangle,1,0.5697701000026427,0.9445906436984665,1.107657248443319,1.1154763264483902,0.6651262152699697,0.9351050804843811,0.9667640115963114,93.32075400004396,,,93.82767240004614,95.28353509999579,96.90199450001819,98.53091690002475,99.70613350003259,101.15792319999309
main_run1,c78c8ff0-6dc5-40b6-bbdc-d03e2c14a016,1,,,ABB,circle,triangle,circle,triangle,"circle,triangle,triangle","circle,triangle",triangle,"rectangle,circle,triangle,star",triangle,2,2,circle,0,1.8202798999845982,1.071352237818342,0.913937074948475,0.9124477476892148,1.0506786195935969,1.3222188573844906,5.471071146228031,102.70412579999538,,,103.21027330000652,104.7929623000091,106.21650570002384,107.64021750004031,109.20678250002675,111.04949940001825
main_run1,c78c8ff0-6dc5-40b6-bbdc-d03e2c14a016,2,,,ABA,rectangle,circle,triangle,star,"rectangle,circle,rectangle","triangle,star",triangle,"rectangle,circle,triangle,star",triangle,3,3,triangle,1,0.49971870001172647,1.2696301377796864,1.0606889284708068,0.9021277522112827,0.2601147547621081,1.0816820967283995,1.6706954819794337,118.35009510000236,,,118.85515090002446,120.63632079999661,122.21236400003545,123.62657680001575,124.4023725000443,126.00326910003787
main_run1,c78c8ff0-6dc5-40b6-bbdc-d03e2c14a016,3,,,ABA,circle,triangle,rectangle,triangle,"circle,triangle,circle","rectangle,triangle",rectangle,"star,circle,triangle,rectangle",rectangle,4,4,rectangle,1,0.5141771999769844,1.060164524882684,0.7384064114478732,1.1052147183523977,0.7066516052512029,1.141439743464161,3.613259695601123,128.18306280003162,,,128.6889680000022,130.26483629998984,131.51462980004726,133.13316450000275,134.34943070000736,136.01238980004564
main_run1,c78c8ff0-6dc5-40b6-bbdc-d03e2c14a016,4,,,ABB,star,rectangle,triangle,star,"star,rectangle,rectangle","triangle,star",star,"star,circle,rectangle,triangle",star,1,1,star,1,0.3915737000061199,0.7875780706602884,0.826769998635408,0.8901978860721577,1.238448456339766,0.8816464468062662,3.5606025926410605,140.14831560000312,,,140.65412310004467,141.95572319999337,143.2954639000236,144.69976300001144,146.44886060000863,147.84632110001985
main_run1,c78c8ff0-6dc5-40b6-bbdc-d03e2c14a016,5,,,ABB,star,rectangle,rectangle,star,"star,rectangle,rectangle","rectangle,star",star,"circle,rectangle,triangle,star",star,4,4,star,1,0.39759970002342016,1.0037480897984856,1.2321514387377315,0.9420638645804896,1.1540419908420907,0.7693866479186839,3.5270925285989945,151.8145996000385,,,152.32081629999448,153.83682710002176,155.58147269999608,157.03698289999738,158.70393580000382,159.99173440004233
main_run1,c78c8ff0-6dc5-40b6-bbdc-d03e2c14a016,6,,,ABB,star,circle,star,triangle,"star,circle,circle","star,triangle",triangle,"triangle,circle,star,rectangle",triangle,1,1,triangle,1,0.43729559995699674,0.9232343965590571,0.9282929955766777,0.9214421097480499,1.291170153237328,0.6222056823718907,4.128653519558006,163.9269193999935,,,164.43058949999977,165.8649198000203,167.30487270001322,168.73969300003955,170.5473808000097,171.6866030000383
main_run1,c78c8ff0-6dc5-40b6-bbdc-d03e2c14a016,7,,,ABA,rectangle,circle,circle,star,"rectangle,circle,rectangle","circle,star",circle,"star,rectangle,circle,triangle",circle,3,3,circle,1,0.4754302999936044,1.3555838467745165,0.8692511801643662,1.159675802769236,1.1428992858243017,1.0519483663251563,2.2573363940676656,176.26601170003414,,,176.77222660003463,178.64337490004255,180.0233943000203,181.6932719000033,183.35033360001398,184.9188184000086
main_run1,c78c8ff0-6dc5-40b6-bbdc-d03e2c14a016,8,,,ABB,rectangle,star,rectangle,triangle,"rectangle,star,star","rectangle,triangle",triangle,"rectangle,circle,triangle,star",triangle,1,1,rectangle,0,1.3033554999856278,1.1389744167018914,0.6907902512830444,0.8730748816201837,0.7100607906349155,0.6427416316983816,1.4214464041799,187.66076460003387,,,188.16543280001497,189.81807750003645,191.0195767999976,192.40729850000935,193.6323406000156,194.79117350000888
main_run1,c78c8ff0-6dc5-40b6-bbdc-d03e2c14a016,9,,,ABB,rectangle,triangle,triangle,rectangle,"rectangle,triangle,triangle","triangle,rectangle",rectangle,"star,triangle,rectangle,circle",rectangle,1,1,star,0,0.43550390005111694,1.2175125369440014,0.9707143669753528,0.6679212009418268,0.9819110725439771,1.043212837608184,2.008635108907977,197.52667180000572,,,198.0319742000429,199.76274520001607,201.2471397999907,202.4292265000404,203.9213221000391,205.48273230000632
main_run1,c78c8ff0-6dc5-40b6-bbdc-d03e2c14a016,10,,,ABB,circle,star,circle,rectangle,"circle,star,star","circle,rectangle",rectangle,"rectangle,circle,triangle,star",rectangle,,,,0,,0.9584045980504605,0.8412460065928787,0.717933584760527,1.1343142959284205,0.9711377405922925,4.237226489757239,207.93493980000494,,,208.44255400000839,209.91481600003317,211.26785820000805,212.4991435999982,214.14578409999376,215.63248760002898
main_run1,c78c8ff0-6dc5-40b6-bbdc-d03e2c14a016,11,,,ABA,triangle,star,star,triangle,"triangle,star,triangle","star,triangle",star,"star,triangle,circle,rectangle",star,1,1,star,1,0.31238140002824366,1.3368930125267589,0.9839564223202829,1.3347617625655916,1.0760590605110156,1.3852686862273311,2.3233568989535054,221.881196500035,,,222.38814930000808,224.2377646000241,225.73472770000808,227.58275450003566,229.1712375000352,231.0720568000106
main_run1,c78c8ff0-6dc5-40b6-bbdc-d03e2c14a016,12,,,ABB,rectangle,star,star,triangle,"rectangle,star,star","star,triangle",triangle,"circle,rectangle,star,triangle",triangle,1,1,circle,0,0.9061347999959253,1.0124476240319695,1.3391855976933946,1.025351849217776,1.050002202569206,1.1818246317902883,1.5662435628140277,233.71756940003252,,,234.22268970002187,235.74884549999842,237.6001760000363,239.13727540004766,240.70085220003966,242.39779760001693
main_run1,c78c8ff0-6dc5-40b6-bbdc-d03e2c14a016,13,,,ABA,triangle,rectangle,star,rectangle,"triangle,rectangle,triangle","star,rectangle",star,"triangle,rectangle,star,circle",star,1,1,triangle,0,0.31436140002915636,1.0178971068583094,1.2524669826606842,1.132169785662971,0.8665277255257876,1.2233723412814617,1.9833838494393645,244.88077550003072,,,245.38731970003573,246.9171680000145,248.68224690004718,250.32921130000614,251.70560740004294,253.4457200000179
main_run1,c78c8ff0-6dc5-40b6-bbdc-d03e2c14a016,14,,,ABA,star,triangle,rectangle,triangle,"star,triangle,star","rectangle,triangle",rectangle,"rectangle,triangle,star,circle",rectangle,,,,0,,1.2621647637807187,0.7690108460227734,0.9955097354283085,1.1182762527755803,1.2004293793466998,1.6623337873817938,255.75277479999932,,,256.25815880001755,258.03219470003387,259.31458780000685,260.81998329999624,262.4516717999941,264.1692076000036
main_run1,c78c8ff0-6dc5-40b6-bbdc-d03e2c14a016,15,,,ABB,rectangle,circle,triangle,star,"rectangle,circle,circle","triangle,star",star,"rectangle,star,circle,triangle",star,1,1,rectangle,0,0.40121139999246225,1.126967685776566,0.8938815818312383,0.8455779304790128,0.8918966183216829,1.1827298460340903,3.8787704387230963,267.841630000039,,,268.3489344000118,269.98757250001654,271.3962244000286,272.75398560002213,274.15669360000174,275.8561205000151
main_run1,c78c8ff0-6dc5-40b6-bbdc-d03e2c14a016,16,,,ABA,circle,triangle,triangle,rectangle,"circle,triangle,circle","triangle,rectangle",triangle,"triangle,rectangle,circle,star",triangle,,,,0,,0.9099526840421698,1.2571915239795741,1.1198060081265433,1.2571834278536773,0.6536881079062193,2.2675712688283927,280.1486333000357,,,280.65520670003025,282.08167510002386,283.8504125000327,285.4813870000071,287.2494220000226,288.4193617000128
main_run1,c78c8ff0-6dc5-40b6-bbdc-d03e2c14a016,17,,,ABB,triangle,star,triangle,star,"triangle,star,star","triangle,star",star,"triangle,circle,rectangle,star",star,,,,0,,0.8929672753562137,1.4328040920423213,1.0599929404013533,1.340944177372251,1.157769190174356,1.6272972721480612,292.6989528000122,,,293.20569329999853,294.608158499992,296.55604440002935,298.1341005000286,299.9867245000205,301.6605924000032
main_run1,c78c8ff0-6dc5-40b6-bbdc-d03e2c14a016,18,,,ABB,rectangle,circle,triangle,rectangle,"rectangle,circle,circle","triangle,rectangle",rectangle,"triangle,rectangle,circle,star",rectangle,1,1,triangle,0,0.3545532000134699,0.9042316689782103,1.2224938763601005,0.8190888557530613,0.8375556322797378,1.2787627792929932,0.6301368560352021,305.2980168000213,,,305.80188119999366,307.2160204999964,308.948743200046,310.2813840000308,311.6326301000081,313.42917690001195
main_run1,c78c8ff0-6dc5-40b6-bbdc-d03e2c14a016,19,,,ABA,star,triangle,star,circle,"star,triangle,star","star,circle",star,"circle,rectangle,triangle,star",star,,,,0,,1.3981185113903678,1.184881557955772,1.0203514076256546,1.0199355487243777,0.9379503022840807,4.180069078854292,314.4243880000431,,,314.92917230003513,316.8389662000118,318.5372749000089,320.0699032000266,321.6024510000134,323.05473700002767
main_run1,c78c8ff0-6dc5-40b6-bbdc-d03e2c14a016,20,,,ABB,star,circle,star,triangle,"star,circle,circle","star,triangle",triangle,"rectangle,star,circle,triangle",triangle,,,,0,,0.8301597099133252,1.204985273706548,1.369824806815631,1.243061819076019,0.7966752327344799,2.7284823520298813,329.24625790002756,,,329.7518827000167,331.09330490004504,332.81293120002374,334.69557270000223,336.4494425000157,337.7625521000009
main_run1,c78c8ff0-6dc5-40b6-bbdc-d03e2c14a016,21,,,ABA,star,rectangle,triangle,rectangle,"star,rectangle,star","triangle,rectangle",triangle,"rectangle,star,circle,triangle",triangle,1,1,rectangle,0,1.743471399997361,1.161434858321541,0.7262648870120234,1.0651616347364992,0.9207752341176468,1.1862059959912448,1.3492057156757777,342.5003304000129,,,343.00624320004135,344.6812671000371,345.9192582000396,347.49753600003896,348.9311596000334,350.632952200016
main_run1,c78c8ff0-6dc5-40b6-bbdc-d03e2c14a016,22,,,ABB,rectangle,circle,circle,star,"rectangle,circle,circle","circle,star",star,"triangle,circle,star,rectangle",star,1,1,triangle,0,1.4202683999901637,1.0054207011727565,0.7659770811590867,1.346171456437518,1.5725626236661103,0.8007891708410131,3.3652606673994225,353.73586390004493,,,354.2408701000386,355.76014870003564,357.04011100000935,358.9006405000109,360.98322739999276,362.30296610004734
main_run1,c78c8ff0-6dc5-40b6-bbdc-d03e2c14a016,23,,,ABA,star,rectangle,star,circle,"star,rectangle,star","star,circle",star,"triangle,rectangle,star,circle",star,,,,0,,1.1185470146163907,1.4024793161273492,1.0170205316059988,0.7913214732237026,0.4832625816104579,3.2954618374326636,367.099392300006,,,367.60390280000865,369.23213389999,371.1458300999948,372.67259000003105,373.9793045000406,374.97526800003834
main_run1,c78c8ff0-6dc5-40b6-bbdc-d03e2c14a016,24,,,ABB,circle,star,rectangle,triangle,"circle,star,star","rectangle,triangle",triangle,"star,circle,triangle,rectangle",triangle,,,,0,,1.0369239820863017,1.2761102834580356,0.6109203852061098,0.8624510379462326,0.9884385093204006,2.28016292078496,380.28159480000613,,,380.78673049999634,382.3368195000221,384.13352259999374,385.2550687000039,386.63204970001243,388.13774600002216
main_run1,c78c8ff0-6dc5-40b6-bbdc-d03e2c14a016,25,,,ABA,circle,rectangle,star,triangle,"circle,rectangle,circle","star,triangle",star,"triangle,circle,rectangle,star",star,1,1,triangle,0,0.7033268000232056,0.72004333734911,1.1078232162712491,1.1923025912857355,0.6304542180356398,0.8020985527983875,3.005735063412258,392.42926720000105,,,392.93572710000444,394.16855020000366,395.78823559999,397.49874509999063,398.64201920002233,399.9577293000184
main_run1,c78c8ff0-6dc5-40b6-bbdc-d03e2c14a016,26,,,ABB,rectangle,star,triangle,circle,"rectangle,star,star","triangle,circle",circle,"star,triangle,rectangle,circle",circle,1,1,star,0,1.0305582000291906,1.1123182921907695,1.166852438867947,1.2580789152099534,0.9044555910673779,0.9880588921547826,4.172791850751242,403.6766687000054,,,404.18259240000043,405.80502990004607,407.48270560003584,409.2523451000452,410.670058800024,412.1740839999984
main_run1,c78c8ff0-6dc5-40b6-bbdc-d03e2c14a016,27,,,ABA,star,rectangle,circle,star,"star,rectangle,star","circle,star",circle,"rectangle,triangle,circle,star",circle,1,1,rectangle,0,0.0964557999977842,0.872330940492276,0.9286507406315196,1.1085605988388152,0.9510554826793501,0.7404298582576867,3.5711179244150406,417.38906760001555,,,417.8965630000457,419.2818613999989,420.755779900006,422.3792278000037,423.8421992000076,425.09761630004505
main_run1,c78c8ff0-6dc5-40b6-bbdc-d03e2c14a016,28,,,ABA,circle,rectangle,rectangle,star,"circle,rectangle,circle","rectangle,star",rectangle,"circle,star,triangle,rectangle",rectangle,1,1,circle,0,0.00554709997959435,0.6577711062013317,0.9886232995533416,0.8306772648207675,0.9237061677610313,0.8770693132025217,3.604725428141425,428.7745779000106,,,429.28161550004734,430.44962770002894,431.95080590003636,433.2921498999931,434.72913670004345,436.1358763000462
main_run1,c78c8ff0-6dc5-40b6-bbdc-d03e2c14a016,29,,,ABA,triangle,star,circle,rectangle,"triangle,star,triangle","circle,rectangle",circle,"rectangle,circle,star,triangle",circle,,,,0,,0.5719898046609919,1.0033393262575117,1.092609563916149,0.9188057099937011,1.1786999671201406,2.7354116359962632,439.76036190002924,,,440.2661747999955,441.35076860000845,442.8661334000062,444.4714066000306,445.9000890000025,447.5960979000083
main_run2,c78c8ff0-6dc5-40b6-bbdc-d03e2c14a016,30,,,ABB,star,triangle,rectangle,star,"star,triangle,triangle","rectangle,star",star,"star,circle,rectangle,triangle",star,,,,0,,0.7114907163854676,1.0169315707996032,1.2131277489854497,0.9030881768364671,0.7684354494750439,1.4847261895263417,479.9993511000066,,,480.5048878000234,481.7268769000075,483.25531050004065,484.98178420000477,486.3983913999982,487.68608310003765
main_run2,c78c8ff0-6dc5-40b6-bbdc-d03e2c14a016,31,,,ABA,circle,triangle,rectangle,star,"circle,triangle,circle","rectangle,star",rectangle,"circle,star,rectangle,triangle",rectangle,,,,0,,0.31324348648143274,1.118911959506222,0.7256117140861393,1.2361077837469965,0.7641403658097139,2.3277422132286776,491.1829853000236,,,491.68802280002274,492.5154018000467,494.1478686000337,495.37989080004627,497.13501600001473,498.4166275000316
main_run2,c78c8ff0-6dc5-40b6-bbdc-d03e2c14a016,32,,,ABA,triangle,circle,star,triangle,"triangle,circle,triangle","star,triangle",star,"star,triangle,rectangle,circle",star,,,,0,,1.0117931284914996,0.9317551770019297,0.7655921648250745,0.902338367395153,1.0904679539541877,1.8904056852038116,502.7546586000244,,,503.26060350000625,504.78246720001334,506.22675249999156,507.5052604000084,508.91902500001015,510.5245348000317
main_run2,c78c8ff0-6dc5-40b6-bbdc-d03e2c14a016,33,,,ABA,rectangle,triangle,triangle,star,"rectangle,triangle,rectangle","triangle,star",triangle,"star,circle,rectangle,triangle",triangle,,,,0,,0.932489983683935,0.8730849459659673,1.0551821002587727,1.1312807420853457,1.0884408857983865,3.562429499894372,514.4248477999936,,,514.9312130000326,516.3752575000399,517.76317749999,519.331719800015,520.9741522000404,522.579684700002
main_run2,c78c8ff0-6dc5-40b6-bbdc-d03e2c14a016,34,,,ABB,circle,triangle,rectangle,star,"circle,triangle,triangle","rectangle,star",star,"triangle,star,circle,rectangle",star,,,,0,,0.9384643874229929,1.030829759719595,0.9711014443064039,0.7827099532138094,0.96170854155753,2.6972571072841243,528.1504915000405,,,528.6572173000313,530.1127194000292,531.6561973000062,533.1420390999992,534.4387844000012,535.9141544000013
main_run2,c78c8ff0-6dc5-40b6-bbdc-d03e2c14a016,35,,,ABA,circle,star,star,circle,"circle,star,circle","star,circle",star,"triangle,rectangle,star,circle",star,,,,0,,1.0676189054983614,1.2748016329036544,0.8132203756709872,1.2847331420278054,1.1229449044000086,3.4583180098849438,540.6210487000062,,,541.1357141000335,542.7171155000106,544.5027703000233,545.8294200000237,547.6269315000391,549.2687212000019
main_run2,c78c8ff0-6dc5-40b6-bbdc-d03e2c14a016,36,,,ABA,circle,rectangle,star,rectangle,"circle,rectangle,circle","star,rectangle",star,"circle,rectangle,star,triangle",star,1,1,circle,0,1.9459933000034653,1.0500113350929337,0.8007037971775336,0.817360415340909,1.2031827014141971,1.1762800483607547,3.7955272545684178,554.7374671000289,,,555.2430381000158,556.8026949000196,558.1162709000055,559.4465055000037,561.1604965000297,562.8536500000046
main_run2,c78c8ff0-6dc5-40b6-bbdc-d03e2c14a016,37,,,ABA,circle,rectangle,rectangle,star,"circle,rectangle,circle","rectangle,star",rectangle,"rectangle,star,circle,triangle",rectangle,,,,0,,1.3802299432500138,1.1604425571141752,1.1584253957542112,0.9295049471404931,0.785080984017879,4.0116566000153275,568.6053461999982,,,569.110811999999,571.0029443000094,572.6737643000088,574.3497226000181,575.7915267000208,577.0961980000138
main_run2,c78c8ff0-6dc5-40b6-bbdc-d03e2c14a016,38,,,ABB,triangle,rectangle,rectangle,triangle,"triangle,rectangle,rectangle","rectangle,triangle",triangle,"circle,rectangle,star,triangle",triangle,,,,0,,0.7719912663433697,1.1062157427497445,1.00833215438744,1.1264870796998623,1.0372302468358914,2.940931406323005,583.1152059000451,,,583.6203667999944,584.9155322000152,586.5330841999967,588.0502351000323,589.6865282999934,591.2357131000026
main_run2,c78c8ff0-6dc5-40b6-bbdc-d03e2c14a016,39,,,ABA,triangle,rectangle,circle,triangle,"triangle,rectangle,triangle","circle,triangle",circle,"circle,rectangle,triangle,star",circle,,,,0,,0.996872690312288,1.1895542343958987,1.1854567413499109,0.8785579738463724,0.9125644971600293,3.3058828268463407,596.1851909999968,,,596.691376200004,598.2026208000025,599.9040286000236,601.5982947000302,602.9891360000474,604.420090700034
main_run2,c78c8ff0-6dc5-40b6-bbdc-d03e2c14a016,40,,,ABA,triangle,rectangle,star,rectangle,"triangle,rectangle,triangle","star,rectangle",star,"star,rectangle,circle,triangle",star,,,,0,,0.48765185461220895,1.0335181913692046,1.0708682355345949,1.0042957202336538,1.001360163539068,3.3079272944751663,609.7348150000325,,,610.2404008000158,611.2423454000382,612.7891601000447,614.3711366000352,615.8882690000464,617.4046541000134
main_run2,c78c8ff0-6dc5-40b6-bbdc-d03e2c14a016,41,,,ABA,triangle,circle,rectangle,star,"triangle,circle,triangle","rectangle,star",rectangle,"rectangle,circle,star,triangle",rectangle,,,,0,,1.2793849417111063,0.7387936830236226,1.031195240988382,1.039197651077843,0.8789527065955811,1.6632671918797954,622.7231019000174,,,623.2297507000039,625.0368689000024,626.2841608000454,627.8272514000419,629.3795694000437,630.7741830000305
main_run2,c78c8ff0-6dc5-40b6-bbdc-d03e2c14a016,42,,,ABB,star,triangle,rectangle,circle,"star,triangle,triangle","rectangle,circle",circle,"circle,star,triangle,rectangle",circle,,,,0,,0.8102140187627037,0.9694077418881885,0.8231023249944095,1.0669502338943928,1.1535471416938123,3.4792224440549764,634.4490057000075,,,634.9546213000431,636.2772927000187,637.7584510000306,639.0934605000075,640.6713224000414,642.3421524000005
main_run2,c78c8ff0-6dc5-40b6-bbdc-d03e2c14a016,43,,,ABA,triangle,circle,rectangle,star,"triangle,circle,triangle","rectangle,star",rectangle,"rectangle,circle,star,triangle",rectangle,,,,0,,1.3442441231679851,1.342489401534538,0.6014049600630145,1.0256953029845843,1.418239758049605,4.396436948504678,647.8320537999971,,,648.338476600009,650.1962043000385,652.0499241999933,653.1638832000317,654.6980620000395,656.6302446000045
main_run2,c78c8ff0-6dc5-40b6-bbdc-d03e2c14a016,44,,,ABA,circle,star,rectangle,circle,"circle,star,circle","rectangle,circle",rectangle,"star,triangle,rectangle,circle",rectangle,,,,0,,1.1777176253871653,0.8407449004841234,1.4122030671581633,0.9925090249072107,0.9659559744105479,2.1771625484719683,663.0362147000269,,,663.5397392000305,665.232773100026,666.5851711000432,668.5106647000066,670.0156175000011,671.4993200000026
main_run2,c78c8ff0-6dc5-40b6-bbdc-d03e2c14a016,45,,,ABA,rectangle,triangle,triangle,circle,"rectangle,triangle,rectangle","triangle,circle",triangle,"star,circle,triangle,rectangle",triangle,,,,0,,0.6824729392000104,0.9996083372159686,0.763577616098615,0.6629216613368965,0.8150828802691348,3.6358326251828705,675.6854884999921,,,676.1986265000305,677.39234760002,678.9058128999895,680.2144285000395,681.3837357000448,682.7162788000423
main_run2,c78c8ff0-6dc5-40b6-bbdc-d03e2c14a016,46,,,ABB,rectangle,circle,rectangle,star,"rectangle,circle,circle","rectangle,star",star,"star,rectangle,triangle,circle",star,,,,0,,1.1164189620771015,1.2686183234821584,0.5891701988953483,1.0045573881131056,1.1418669987641046,1.7069097651379816,688.3614571000217,,,688.8653666000464,690.4911450000363,692.2664077000227,693.3816491000471,694.8980833000387,696.5538727000239
main_run2,c78c8ff0-6dc5-40b6-bbdc-d03e2c14a016,47,,,ABA,star,rectangle,triangle,circle,"star,rectangle,star","triangle,circle",triangle,"star,triangle,circle,rectangle",triangle,,,,0,,1.054583777441824,0.9833661514894618,0.9615294321478677,0.9584342410190023,1.0605536393057384,3.4225593928703155,700.2690078000305,,,700.7766250999994,702.3443327000132,703.837924499996,705.3130938000395,706.7817092000041,708.3570806999924
main_run2,c78c8ff0-6dc5-40b6-bbdc-d03e2c14a016,48,,,ABB,rectangle,star,rectangle,circle,"rectangle,star,star","rectangle,circle",circle,"star,triangle,rectangle,circle",circle,,,,0,,1.257383679140598,0.9837212017027455,0.7815474657625583,0.9380089344469283,0.6590253003198011,6.082906112828999,713.7902850999963,,,714.2989745000377,716.064383000019,717.5589149000007,718.851977000013,720.3011652000132,721.4709964999929
main_run2,c78c8ff0-6dc5-40b6-bbdc-d03e2c14a016,49,,,ABA,star,circle,triangle,rectangle,"star,circle,star","triangle,rectangle",triangle,"star,rectangle,circle,triangle",triangle,,,,0,,1.1170752533645911,0.6512516941862756,0.859307830561315,1.0620071254398613,1.0146928453867663,2.027313990563421,729.5652801000397,,,730.0720421000151,731.6968285000185,732.8607522000093,734.2327349000261,735.8046164000407,737.3357758999919
main_run2,c78c8ff0-6dc5-40b6-bbdc-d03e2c14a016,50,,,ABB,rectangle,triangle,circle,triangle,"rectangle,triangle,triangle","circle,triangle",triangle,"circle,star,rectangle,triangle",triangle,,,,0,,1.2495116193253346,0.9783973734327529,0.8579929116634322,1.12354387053984,0.790420625480243,0.8819093223972176,741.3712987000472,,,741.8793581000064,743.6405339000048,745.1348278000369,746.5024229999981,748.1369585000211,749.4444341000053
main_run2,c78c8ff0-6dc5-40b6-bbdc-d03e2c14a016,51,,,ABA,circle,triangle,rectangle,triangle,"circle,triangle,circle","rectangle,triangle",rectangle,"triangle,star,rectangle,circle",rectangle,,,,0,,1.0783371419530892,1.5540428129371708,0.7840254933215283,0.8820713987901079,0.6942124157874479,1.7024140740893579,752.3329109000042,,,752.8383918000036,754.4297048000153,756.4947135000257,757.7907991000102,759.1842809999944,760.3936546000186
main_run2,c78c8ff0-6dc5-40b6-bbdc-d03e2c14a016,52,,,ABB,rectangle,star,star,triangle,"rectangle,star,star","star,triangle",triangle,"star,triangle,rectangle,circle",triangle,,,,0,,1.1490990530982839,0.8369905756674167,0.7506164126032067,0.8984532993385375,1.039927999830128,4.317282757148019,764.1052997999941,,,764.6110953000025,766.2706126000267,767.6178049000446,768.885314300016,770.3010782999918,771.8547458000248
main_run2,c78c8ff0-6dc5-40b6-bbdc-d03e2c14a016,53,,,ABA,rectangle,star,circle,rectangle,"rectangle,star,rectangle","circle,rectangle",circle,"rectangle,star,triangle,circle",circle,,,,0,,1.0073332111033095,0.9047316154701892,1.2360127792922542,0.8788315764349456,0.995410537195815,4.534449536310556,778.1834729000111,,,778.6890584999928,780.2102306000306,781.6225842999993,783.3683781000436,784.7586013000109,786.2731116000214
main_run2,c78c8ff0-6dc5-40b6-bbdc-d03e2c14a016,54,,,ABA,star,rectangle,rectangle,circle,"star,rectangle,star","rectangle,circle",rectangle,"rectangle,circle,star,triangle",rectangle,,,,0,,1.0156685079106742,0.8021127312607522,0.9286313396589709,0.8170726704540756,0.6791348524179843,1.2456209664826936,792.8203472000314,,,793.3265252000419,794.8537442000234,796.1659274999984,797.606427700026,798.9347910000361,800.1381500000134
main_run2,c78c8ff0-6dc5-40b6-bbdc-d03e2c14a016,55,,,ABA,triangle,circle,star,rectangle,"triangle,circle,triangle","star,rectangle",star,"star,circle,rectangle,triangle",star,,,,0,,1.0031607248513943,0.6592892153285861,0.8071798674436472,1.1282575428419535,1.386852968316256,3.0014699982237056,803.3923130999901,,,803.8969668000354,805.4130516000441,806.5830545999925,807.9016944000032,809.5490932000102,811.4542605000315
main_run2,c78c8ff0-6dc5-40b6-bbdc-d03e2c14a016,56,,,ABB,rectangle,circle,triangle,circle,"rectangle,circle,circle","triangle,circle",circle,"rectangle,circle,star,triangle",circle,,,,0,,0.9413995380031792,0.773946471035148,1.2483825201998848,0.7912685803577554,1.1375487658574222,3.166415675784883,816.4660170000279,,,816.9706974000437,818.4243648000411,819.7132996,821.4716611999902,822.7690025999909,824.4189375000424
main_run2,c78c8ff0-6dc5-40b6-bbdc-d03e2c14a016,57,,,ABB,triangle,circle,star,triangle,"triangle,circle,circle","star,triangle",triangle,"triangle,star,rectangle,circle",triangle,,,,0,,0.7359480503193878,1.221405542609555,1.2509573456102823,0.7351740666924624,1.2920607905627037,4.124427813369326,829.5968543000054,,,830.102074800001,831.3541311000008,833.0858276000363,834.8497891000006,836.0993993000011,837.9044623000082
main_run2,c78c8ff0-6dc5-40b6-bbdc-d03e2c14a016,58,,,ABB,triangle,rectangle,rectangle,triangle,"triangle,rectangle,rectangle","rectangle,triangle",triangle,"star,circle,triangle,rectangle",triangle,,,,0,,0.9984205295766553,0.762078603076154,0.9130435825338544,0.9875143852149867,0.8889308760000985,3.330920480792387,844.0361706000404,,,844.5400074000354,846.0481576000457,847.3231039000093,848.7510830000392,850.2499703000067,851.6533077000058
main_run2,c78c8ff0-6dc5-40b6-bbdc-d03e2c14a016,59,,,ABA,rectangle,star,rectangle,star,"rectangle,star,rectangle","rectangle,star",rectangle,"triangle,rectangle,circle,star",rectangle,,,,0,,0.9563555438279174,0.8190362324820292,0.7357841546798292,0.9117450305751235,0.6771824172007055,3.4097223080294676,856.9943756000139,,,857.4998775999993,858.9676578000071,860.2982338000438,861.5465920999995,862.9698762000189,864.1661966000102
main_run3,c78c8ff0-6dc5-40b6-bbdc-d03e2c14a016,60,,,ABB,circle,triangle,circle,triangle,"circle,triangle,triangle","circle,triangle",triangle,"star,triangle,circle,rectangle",triangle,,,,0,,0.8866907954693579,0.8471766345034027,0.6912586471904498,1.111201887221052,1.0461512918211466,2.53437175453917,875.2539781000232,,,875.7604575000005,877.1604649000219,878.5181839000434,879.7220810000435,881.3484451000113,882.9108318000217
main_run3,c78c8ff0-6dc5-40b6-bbdc-d03e2c14a016,61,,,ABB,triangle,rectangle,triangle,circle,"triangle,rectangle,rectangle","triangle,circle",circle,"triangle,rectangle,circle,star",circle,,,,0,,1.0393608983768279,1.1385548163348806,1.0705828420518781,0.7688826916825787,1.0608506016593489,3.697527504207404,887.4544857000001,,,887.9618047000258,889.5130933999899,891.1641546000028,892.7464842000045,894.0272583999904,895.602212400001
main_run3,c78c8ff0-6dc5-40b6-bbdc-d03e2c14a016,62,,,ABB,star,circle,rectangle,circle,"star,circle,circle","rectangle,circle",circle,"rectangle,circle,star,triangle",circle,,,,0,,1.1213831738118873,1.0797820582724837,1.0743813707171899,0.9385222220081014,1.0832598726288507,2.198748361099131,901.3060822000261,,,901.8099043000257,903.4441181000439,905.0369509000448,906.6207012000377,908.082215500006,909.6797599000274
main_run3,c78c8ff0-6dc5-40b6-bbdc-d03e2c14a016,63,,,ABA,triangle,star,star,triangle,"triangle,star,triangle","star,triangle",star,"circle,triangle,star,rectangle",star,,,,0,,0.9383019815729057,0.746980957170445,0.7373607060570063,1.178657317736095,1.0144013605768658,3.3658436212161997,913.8893827000284,,,914.3965656000073,915.8464970000205,917.1037911000312,918.3546701000305,920.0492198000429,921.5795269000228
main_run3,c78c8ff0-6dc5-40b6-bbdc-d03e2c14a016,64,,,ABA,rectangle,star,circle,rectangle,"rectangle,star,rectangle","circle,rectangle",circle,"triangle,star,rectangle,circle",circle,,,,0,,0.9179904127044123,0.9352372421975663,0.9659004604220954,0.6690277600516048,1.1672236966039802,3.8514355225959083,926.9552445000154,,,927.46338500001,928.8912835000083,930.3393223000458,931.8174031000235,932.9958919000346,934.6780853000237
main_run3,c78c8ff0-6dc5-40b6-bbdc-d03e2c14a016,65,,,ABB,star,circle,triangle,star,"star,circle,circle","triangle,star",star,"rectangle,star,triangle,circle",star,,,,0,,0.8536628704247728,1.5564936353177337,1.244032638674335,1.0319956077677102,1.0373173758448782,2.244927957775229,940.538368700014,,,941.0444739999948,942.4085927000269,944.4810218000202,946.2356811999925,947.7862978000194,949.3376297000214
main_run3,c78c8ff0-6dc5-40b6-bbdc-d03e2c14a016,66,,,ABB,circle,rectangle,rectangle,triangle,"circle,rectangle,rectangle","rectangle,triangle",triangle,"triangle,star,rectangle,circle",triangle,,,,0,,1.0279107143156672,1.1631052484498383,1.0440517938201903,1.2502668256771086,1.0548362408602514,2.030001962256845,953.5934853000217,,,954.1002137000323,955.6400218000053,957.3157230000361,958.8699964000261,960.6334997999948,962.203837500012
main_run3,c78c8ff0-6dc5-40b6-bbdc-d03e2c14a016,67,,,ABB,triangle,circle,star,triangle,"triangle,circle,circle","star,triangle",triangle,"triangle,star,rectangle,circle",triangle,,,,0,,0.7767973848102905,1.1997883856423106,1.020027855837498,0.67592523051821,1.3447219839624387,3.9862764592666333,966.2424340000143,,,966.749115100014,968.0378659000271,969.747648700024,971.2791421000147,972.4648550000275,974.324437000032
main_run3,c78c8ff0-6dc5-40b6-bbdc-d03e2c14a016,68,,,ABA,rectangle,circle,circle,star,"rectangle,circle,rectangle","circle,star",circle,"star,circle,rectangle,triangle",circle,,,,0,,1.215680049355555,1.2373423982707146,0.780242323155506,0.706698034331797,0.8546583212809623,3.930050797393207,980.3210144999903,,,980.8304332999978,982.55803439999,984.3051986999926,985.5986671000137,986.8165316000232,988.1889042000403
main_run3,c78c8ff0-6dc5-40b6-bbdc-d03e2c14a016,69,,,ABB,star,rectangle,star,rectangle,"star,rectangle,rectangle","star,rectangle",rectangle,"triangle,rectangle,circle,star",rectangle,,,,0,,1.0400677253566049,1.2161261143475843,0.849084620088504,1.3283804119870972,1.1213732531701852,4.347626744153833,994.1296538000461,,,994.634043900005,996.1923621000024,997.9216457000002,999.2820021000225,1001.1352190000471,1002.7723222000059
main_run3,c78c8ff0-6dc5-40b6-bbdc-d03e2c14a016,70,,,ABB,circle,star,triangle,rectangle,"circle,star,star","triangle,rectangle",rectangle,"circle,star,triangle,rectangle",rectangle,,,,0,,1.1999077724169784,1.1264378084036635,0.4433741307360016,0.9819279830642295,0.612057499164551,2.5899914372422277,1009.1355500000063,,,1009.6419853999978,1011.3743732000003,1013.0084924999974,1013.9666513000266,1015.4542947000009,1016.5843415000127
main_run3,c78c8ff0-6dc5-40b6-bbdc-d03e2c14a016,71,,,ABB,circle,triangle,rectangle,star,"circle,triangle,triangle","rectangle,star",star,"star,circle,triangle,rectangle",star,,,,0,,0.6864701870225796,1.046647452836019,1.1323446799541539,0.6266631215241246,1.097467656582967,3.1423351943050934,1021.1827210999909,,,1021.6856945000472,1022.8813072000048,1024.440563500044,1026.0884320000187,1027.2221003000159,1028.839371900016
main_run3,c78c8ff0-6dc5-40b6-bbdc-d03e2c14a016,72,,,ABA,circle,triangle,triangle,circle,"circle,triangle,circle","triangle,circle",triangle,"rectangle,star,circle,triangle",triangle,,,,0,,0.781414710554581,0.7444252966356252,0.9595093830502166,1.2079059566752135,0.8545225480050322,1.7581002541370876,1033.9925194000243,,,1034.4995496000047,1035.7946610000217,1037.0507894000039,1038.5202934000408,1040.2370313000283,1041.601318400004
main_run3,c78c8ff0-6dc5-40b6-bbdc-d03e2c14a016,73,,,ABB,triangle,star,triangle,rectangle,"triangle,star,star","triangle,rectangle",rectangle,"circle,rectangle,triangle,star",rectangle,,,,0,,1.012513834598665,0.8107627725083087,1.2515766745176686,0.8802810289205434,1.0163458092755724,2.525955893824828,1045.3658410999924,,,1045.868570199993,1047.3916192000033,1048.7163858000422,1050.4800273000146,1051.8720994000323,1053.404196700023
main_run3,c78c8ff0-6dc5-40b6-bbdc-d03e2c14a016,74,,,ABB,triangle,circle,rectangle,circle,"triangle,circle,circle","rectangle,circle",circle,"rectangle,star,triangle,circle",circle,,,,0,,0.8190114258877567,0.9930614673439946,1.0880315478514,1.090382600873885,0.957146140827909,4.017562293870183,1057.9413337000296,,,1058.4491525000194,1059.7799460000242,1061.283998900035,1062.8827117000474,1064.4822101000464,1065.9545563000138
main_run3,c78c8ff0-6dc5-40b6-bbdc-d03e2c14a016,75,,,ABB,star,triangle,circle,rectangle,"star,triangle,triangle","circle,rectangle",rectangle,"rectangle,star,circle,triangle",rectangle,,,,0,,1.0050253964283649,1.1592969078279416,0.9242633685058312,0.9934641284446488,1.0276741825670435,4.687466629786146,1071.9829724000301,,,1072.4882172000362,1074.0059205000289,1075.6818364000064,1077.1162162999972,1078.6211240999983,1080.1720957999933
main_run3,c78c8ff0-6dc5-40b6-bbdc-d03e2c14a016,76,,,ABA,rectangle,circle,rectangle,star,"rectangle,circle,rectangle","rectangle,star",rectangle,"circle,star,rectangle,triangle",rectangle,,,,0,,1.1807625520211364,1.1682314196681376,0.9316061219755859,1.0775914511602405,1.2851724267308422,2.1958145778794385,1086.8708959000069,,,1087.3772360000294,1089.0706244000467,1090.750410800043,1092.1927309000166,1093.7846521000029,1095.5861822000006
main_run3,c78c8ff0-6dc5-40b6-bbdc-d03e2c14a016,77,,,ABA,triangle,circle,star,circle,"triangle,circle,triangle","star,circle",star,"star,circle,rectangle,triangle",star,,,,0,,1.142660519772868,0.8371463737217997,0.8870947515850055,1.0642600534541524,0.8923514098961948,2.366604292875014,1099.791706399992,,,1100.298778700002,1101.9513600000064,1103.2996501000016,1104.6992680000258,1106.2735353000462,1107.6857135000173
main_run3,c78c8ff0-6dc5-40b6-bbdc-d03e2c14a016,78,,,ABA,circle,star,star,circle,"circle,star,circle","star,circle",star,"circle,star,rectangle,triangle",star,,,,0,,1.1822309286716912,0.7385241474590363,0.8251102635196926,0.878182952556543,0.8049161533949508,3.56979346525869,1112.063748000015,,,1112.5697987000458,1114.2668583000195,1115.5170209000353,1116.854119500029,1118.2465969999903,1119.5711555000162
main_run3,c78c8ff0-6dc5-40b6-bbdc-d03e2c14a016,79,,,ABB,star,triangle,star,circle,"star,triangle,triangle","star,circle",circle,"rectangle,triangle,star,circle",circle,,,,0,,1.1677542956366762,1.2708511073216586,0.9926590138962993,0.943164004736402,0.9558279170004891,2.1268206926053677,1125.1507545000059,,,1125.656292700034,1127.337581700005,1129.134106500016,1130.638469700003,1132.0950375000248,1133.5714889999945
main_run3,c78c8ff0-6dc5-40b6-bbdc-d03e2c14a016,80,,,ABA,rectangle,triangle,triangle,star,"rectangle,triangle,rectangle","triangle,star",triangle,"triangle,circle,star,rectangle",triangle,,,,0,,0.6531583290641566,0.5702759662234127,1.3296671992087268,1.266263168381192,1.2652344276562564,3.468847158217812,1137.7079763000365,,,1138.2158083000104,1139.38282540004,1140.4658786000218,1142.3080036000465,1144.088633300038,1145.8703566000331
main_run3,c78c8ff0-6dc5-40b6-bbdc-d03e2c14a016,81,,,ABB,circle,rectangle,triangle,rectangle,"circle,rectangle,rectangle","triangle,rectangle",rectangle,"star,rectangle,triangle,circle",rectangle,,,,0,,0.7766131095673243,1.003405745248803,1.166123191021832,0.8583562134297444,1.101570235692344,3.3411314950554245,1151.3463505000109,,,1151.8515217000386,1153.139804400038,1154.655804500042,1156.3335416000336,1157.702047800005,1159.321979100001
main_run3,c78c8ff0-6dc5-40b6-bbdc-d03e2c14a016,82,,,ABA,star,triangle,star,triangle,"star,triangle,star","star,triangle",star,"triangle,star,rectangle,circle",star,,,,0,,0.9655359976378781,0.7950963932009616,0.9817734127266573,0.886986553999199,0.805322520763589,2.245657181841537,1164.6732335000415,,,1165.1778542000102,1166.6547009000205,1167.9655940000084,1169.459706099995,1170.8614498000243,1172.1839373999974
main_run3,c78c8ff0-6dc5-40b6-bbdc-d03e2c14a016,83,,,ABB,circle,rectangle,rectangle,star,"circle,rectangle,rectangle","rectangle,star",star,"triangle,star,rectangle,circle",star,,,,0,,1.3980677047049808,1.1378578164656474,1.1450321683103164,1.0458989528902622,1.099878471872647,2.905280624232837,1176.4425232000067,,,1176.9499212999945,1178.8591349000344,1180.5119525000337,1182.164400300011,1183.7190655000159,1185.3296306999982
main_run3,c78c8ff0-6dc5-40b6-bbdc-d03e2c14a016,84,,,ABB,star,rectangle,circle,rectangle,"star,rectangle,rectangle","circle,rectangle",rectangle,"star,circle,rectangle,triangle",rectangle,,,,0,,0.9005865146328205,1.1724730014222207,0.891852853832403,0.8208786805007154,1.051299665235715,3.58484030135609,1190.2436565000098,,,1190.7487248000107,1192.1582278000424,1193.8388645999948,1195.238457600004,1196.5681591000175,1198.1285408000113
main_run3,c78c8ff0-6dc5-40b6-bbdc-d03e2c14a016,85,,,ABB,star,circle,rectangle,triangle,"star,circle,circle","rectangle,triangle",triangle,"rectangle,star,triangle,circle",triangle,,,,0,,1.0937235435512773,0.9575351406766348,1.0844934849455496,0.7422111304319121,1.148587655707978,3.2172375812950764,1203.7221996000153,,,1204.2277047000243,1205.8324382000137,1207.3022024999955,1208.8989443000173,1210.1529464999912,1211.8212400000193
main_run3,c78c8ff0-6dc5-40b6-bbdc-d03e2c14a016,86,,,ABA,triangle,star,circle,triangle,"triangle,star,triangle","circle,triangle",circle,"circle,star,rectangle,triangle",circle,,,,0,,0.9273367359707116,1.2200126175045045,1.2777277939380425,0.8750272812371378,0.6239562481083063,2.4909678210244004,1217.0473484999966,,,1217.5533962000045,1218.9918384000193,1220.7244380000047,1222.5164268999943,1223.9024723000475,1225.0409138000105
main_run3,c78c8ff0-6dc5-40b6-bbdc-d03e2c14a016,87,,,ABA,star,circle,circle,star,"star,circle,star","circle,star",circle,"triangle,circle,rectangle,star",circle,,,,0,,0.8914566003872137,0.8660648459942634,0.9875218505395463,1.108318613653053,1.1545444385769272,3.587222568980641,1229.5420616000192,,,1230.0488853999996,1231.451393800031,1232.8283220000449,1234.328149900015,1235.9475980999996,1237.6189610000001
main_run3,c78c8ff0-6dc5-40b6-bbdc-d03e2c14a016,88,,,ABA,star,circle,star,circle,"star,circle,star","star,circle",star,"rectangle,triangle,star,circle",star,,,,0,,0.8251239551609456,0.9115393926515074,0.9778806318093591,0.9978552146820504,1.043000483365344,5.66950763805288,1243.2184681000072,,,1243.7249714999925,1245.0667482000426,1246.492296100012,1247.9842694000108,1249.4958741000155,1251.0570220000227
main_run3,c78c8ff0-6dc5-40b6-bbdc-d03e2c14a016,89,,,ABB,triangle,rectangle,triangle,star,"triangle,rectangle,rectangle","triangle,star",star,"circle,rectangle,star,triangle",star,,,,0,,1.148543625197525,1.0763265532255017,0.9671159356610921,1.06952039681753,1.0450728924228823,3.238220329211801,1258.7385913000326,,,1259.2467155000195,1260.9040242999909,1262.4925675000413,1264.0014081000118,1265.5850397000322,1267.1519736000337
main_run4,c78c8ff0-6dc5-40b6-bbdc-d03e2c14a016,90,,,ABA,star,circle,circle,star,"star,circle,star","circle,star",circle,"circle,rectangle,triangle,star",circle,,,,0,,0.6852852113129649,1.1188023353007073,0.9681670973622218,0.9034192131408199,1.0369958031342628,1.7470944154178758,1280.140012399992,,,1280.6468550999998,1281.843481399992,1283.4750282000168,1284.9575456000166,1286.374340600043,1287.927419100015
main_run4,c78c8ff0-6dc5-40b6-bbdc-d03e2c14a016,91,,,ABA,triangle,rectangle,circle,rectangle,"triangle,rectangle,triangle","circle,rectangle",circle,"rectangle,circle,triangle,star",circle,,,,0,,0.8762214569384842,0.7550541426755094,1.2589554381044445,1.1364236403560768,0.8080479476979648,2.865397202727506,1291.684367000009,,,1292.19103300001,1293.5755465000402,1294.8470890000463,1296.6176089000073,1298.2656595000299,1299.587750900013
main_run4,c78c8ff0-6dc5-40b6-bbdc-d03e2c14a016,92,,,ABA,circle,star,star,triangle,"circle,star,circle","star,triangle",star,"circle,rectangle,star,triangle",star,,,,0,,0.6140108287121409,0.6706257900302772,1.200854990327951,0.9067069168255777,0.7673445317596871,1.2314049634510196,1304.4636630000314,,,1304.9705087000038,1306.1002128000255,1307.283440100029,1308.9983278000145,1310.417230000021,1311.701845600037
main_run4,c78c8ff0-6dc5-40b6-bbdc-d03e2c14a016,93,,,ABB,star,rectangle,rectangle,circle,"star,rectangle,rectangle","rectangle,circle",circle,"circle,triangle,star,rectangle",circle,,,,0,,1.1798942385605147,0.9917374327745465,0.9329548594282193,0.9514080364198596,1.0525742544889207,3.0139994657373754,1314.9423829000443,,,1315.4521776000038,1317.143214300042,1318.6500119999982,1320.1003000999917,1321.565275800007,1323.1511649000458
main_run4,c78c8ff0-6dc5-40b6-bbdc-d03e2c14a016,94,,,ABB,circle,triangle,rectangle,star,"circle,triangle,triangle","rectangle,star",star,"triangle,circle,star,rectangle",star,,,,0,,1.265648062407239,0.9661942059393687,1.1883178530014564,0.7866035227156709,0.7629466044691826,3.8470849874940103,1328.175304000033,,,1328.683126799995,1330.465863200021,1331.9431528000277,1333.6471413000254,1334.9493449000292,1336.2281125000445
main_run4,c78c8ff0-6dc5-40b6-bbdc-d03e2c14a016,95,,,ABA,star,circle,star,rectangle,"star,circle,star","star,rectangle",star,"star,rectangle,triangle,circle",star,,,,0,,0.9601230778052868,1.1675189304776423,0.9391141485409907,0.9816992859822947,0.9755430034439388,3.1164491219811703,1342.0849244000274,,,1342.5940967000206,1344.0670914000366,1345.745210700028,1347.1950167000177,1348.6868140000151,1350.1818419999909
main_run4,c78c8ff0-6dc5-40b6-bbdc-d03e2c14a016,96,,,ABB,triangle,star,star,rectangle,"triangle,star,star","star,rectangle",rectangle,"circle,triangle,rectangle,star",rectangle,,,,0,,0.9777971064377525,1.4433536313617914,1.217358230395225,0.8306725325817454,1.1052130253659707,3.4562264832086353,1355.3066618000157,,,1355.8137577000307,1357.3037642000127,1359.2603291000123,1360.989165200037,1362.3328655000078,1363.95538270002
main_run4,c78c8ff0-6dc5-40b6-bbdc-d03e2c14a016,97,,,ABB,circle,star,triangle,circle,"circle,star,star","triangle,circle",circle,"star,circle,rectangle,triangle",circle,,,,0,,1.0357264031799955,0.9725408858037955,1.4802501515274016,1.1546130743329552,1.0483326427217048,1.3633694679907904,1369.420469100005,,,1369.9245524000144,1371.4714987000334,1372.9569940000074,1374.9509257000173,1376.6170495999977,1378.1991001000279
main_run4,c78c8ff0-6dc5-40b6-bbdc-d03e2c14a016,98,,,ABA,rectangle,triangle,star,rectangle,"rectangle,triangle,rectangle","star,rectangle",star,"triangle,star,rectangle,circle",star,,,,0,,0.7534511179958772,0.7684749317567658,1.3008165228237465,1.2205032771838609,1.2279720685558688,2.0945444762675964,1381.5730548000429,,,1382.0775069000083,1383.3383834999986,1384.6162422000198,1386.428524499992,1388.1612891000113,1389.9034142000019
main_run4,c78c8ff0-6dc5-40b6-bbdc-d03e2c14a016,99,,,ABB,triangle,star,rectangle,circle,"triangle,star,star","rectangle,circle",circle,"triangle,rectangle,circle,star",circle,,,,0,,0.6679251611711912,1.192657868214483,0.8118991616529858,0.8982193569623027,1.2963290662597813,2.9863314390703404,1394.0079876999953,,,1394.5158565000165,1395.696814200026,1397.3968086999957,1398.7181709000142,1400.1368550999905,1401.9497938000131
main_run4,c78c8ff0-6dc5-40b6-bbdc-d03e2c14a016,100,,,ABA,star,triangle,triangle,rectangle,"star,triangle,star","triangle,rectangle",triangle,"circle,star,rectangle,triangle",triangle,,,,0,,0.9692079078320156,0.985011039639319,1.380943761228136,1.2708291233634232,0.9771264390771557,3.274243669920294,1406.943688600033,,,1407.4501477000304,1408.9260540000396,1410.4238589000306,1412.318939400022,1414.100966900005,1415.5941797000123
main_run4,c78c8ff0-6dc5-40b6-bbdc-d03e2c14a016,101,,,ABA,circle,star,star,circle,"circle,star,circle","star,circle",star,"rectangle,star,triangle,circle",star,,,,0,,0.7796356526294883,1.199906756167783,1.0301231509823965,1.0920895589491497,0.5447335856704786,3.5541967583343563,1420.8759644000093,,,1421.3814318000223,1422.6689705000026,1424.3750931000104,1425.9139665000257,1427.5142714999965,1428.5689303000108
main_run4,c78c8ff0-6dc5-40b6-bbdc-d03e2c14a016,102,,,ABB,circle,rectangle,rectangle,circle,"circle,rectangle,rectangle","rectangle,circle",circle,"circle,rectangle,triangle,star",circle,,,,0,,1.0504905898509138,1.0197363420044219,1.3087483534336157,1.2128709304932141,0.9939602049937896,2.5428406000455746,1434.1305778000387,,,1434.6357572000124,1436.199814599997,1437.7284079000237,1439.5464090000023,1441.272128600045,1442.782595800003
main_run4,c78c8ff0-6dc5-40b6-bbdc-d03e2c14a016,103,,,ABB,triangle,circle,circle,rectangle,"triangle,circle,circle","circle,rectangle",rectangle,"star,triangle,rectangle,circle",rectangle,,,,0,,0.8304739620035513,0.6438515030839727,1.0307976958734444,0.9430782944688653,1.0170785047167212,2.950642003433681,1447.3353096999926,,,1447.8397281999933,1449.1838183000218,1450.3380774999969,1451.8818938999902,1453.3364778000396,1454.866617200023
main_run4,c78c8ff0-6dc5-40b6-bbdc-d03e2c14a016,104,,,ABA,rectangle,star,rectangle,circle,"rectangle,star,rectangle","rectangle,circle",rectangle,"triangle,rectangle,star,circle",rectangle,,,,0,,1.2805447251885482,0.7285779965154326,0.876243629561668,1.2248489893243386,1.1679402941050294,3.823611357394083,1459.826477500028,,,1460.335239200038,1462.1356346000102,1463.37498100003,1464.7661048000446,1466.5012507000356,1468.1873068000423
main_run4,c78c8ff0-6dc5-40b6-bbdc-d03e2c14a016,105,,,ABA,rectangle,star,circle,rectangle,"rectangle,star,rectangle","circle,rectangle",circle,"rectangle,triangle,circle,star",circle,,,,0,,0.7151053569450174,0.7369094317338434,0.6411689975643438,1.1523167024394676,0.8489844382697153,3.589677948555586,1474.0206963000237,,,1474.5263887000037,1475.7508434000192,1476.999864900019,1478.1537467000308,1479.8169232000364,1481.180260299996
main_run4,c78c8ff0-6dc5-40b6-bbdc-d03e2c14a016,106,,,ABB,rectangle,triangle,triangle,star,"rectangle,triangle,triangle","triangle,star",star,"circle,star,triangle,rectangle",star,,,,0,,0.8617437212162249,1.1834684162215061,0.6356989219381315,1.2735336149159608,1.265826493608381,3.029624945220578,1486.7807667000452,,,1487.287555399991,1488.6599072000245,1490.3513523000292,1491.500183199998,1493.282742600015,1495.063931600016
main_run4,c78c8ff0-6dc5-40b6-bbdc-d03e2c14a016,107,,,ABB,triangle,circle,star,rectangle,"triangle,circle,circle","star,rectangle",rectangle,"circle,star,triangle,rectangle",rectangle,,,,0,,1.2761363327810502,1.0372093559897955,0.7329150485123421,1.0196803566252708,1.039309691595929,3.890700687992699,1500.10266959999,,,1500.608272600046,1502.4008621000103,1503.950204599998,1505.1932752000284,1506.7277726000175,1508.2866452000453
main_run4,c78c8ff0-6dc5-40b6-bbdc-d03e2c14a016,108,,,ABB,triangle,rectangle,rectangle,triangle,"triangle,rectangle,rectangle","rectangle,triangle",triangle,"rectangle,star,triangle,circle",triangle,1,1,rectangle,0,0.05064370000036433,1.147736380572065,1.0637298773854786,0.5620342654605816,0.8658917696382491,0.5457210125599058,2.692852538269781,1514.1865789000294,,,1514.6922262000153,1516.3533949000412,1517.9305956000462,1519.0028129999992,1520.3834412000142,1521.4433725000126
main_run4,c78c8ff0-6dc5-40b6-bbdc-d03e2c14a016,109,,,ABA,rectangle,circle,triangle,circle,"rectangle,circle,rectangle","triangle,circle",triangle,"rectangle,star,circle,triangle",triangle,,,,0,,1.3253915662906857,1.1427867879637676,1.1616817391447298,1.346409643647207,1.296985516837164,2.7702139274243067,1524.1997559000156,,,1524.7061728000408,1526.5447286000126,1528.1999180000275,1529.8724144000444,1531.7325496000121,1533.5470863000373
main_run4,c78c8ff0-6dc5-40b6-bbdc-d03e2c14a016,110,,,ABB,rectangle,triangle,triangle,star,"rectangle,triangle,triangle","triangle,star",star,"rectangle,triangle,star,circle",star,,,,0,,1.1867089950647642,1.5123211233275016,0.9408322758573245,0.9758069480652133,1.072452165195935,3.1172652211122087,1538.3261171000195,,,1538.8332166000037,1540.5329520000378,1542.5572880000109,1544.0115556000383,1545.4994137000176,1547.087616600038
main_run4,c78c8ff0-6dc5-40b6-bbdc-d03e2c14a016,111,,,ABA,rectangle,triangle,circle,triangle,"rectangle,triangle,rectangle","circle,triangle",circle,"triangle,circle,star,rectangle",circle,,,,0,,1.3030694325891776,0.6323120314891588,0.8806577937791334,0.7323952461509907,1.0691693515045189,3.2663517409943648,1552.2165872000041,,,1552.7210932000307,1554.5351798000047,1555.6807903000154,1557.074213200016,1558.3175101000234,1559.9030332000111
main_run4,c78c8ff0-6dc5-40b6-bbdc-d03e2c14a016,112,,,ABB,triangle,star,triangle,rectangle,"triangle,star,star","triangle,rectangle",rectangle,"rectangle,star,circle,triangle",rectangle,,,,0,,0.6569455457742838,1.0299908943005442,0.7953276994748696,0.7323193146364171,1.0204185686209672,3.2787090337097218,1565.1785192000098,,,1565.6850122000324,1566.8543040000368,1568.4004245999968,1569.705198200012,1570.9524335000315,1572.4862071000389
main_run4,c78c8ff0-6dc5-40b6-bbdc-d03e2c14a016,113,,,ABA,star,triangle,triangle,star,"star,triangle,star","triangle,star",triangle,"triangle,rectangle,star,circle",triangle,,,,0,,0.8253924988626159,0.8022945269611447,1.3094405980139578,1.1966492778937579,1.0478828350716105,1.9767060465047948,1577.7742431000224,,,1578.2804270000197,1579.6204301000107,1580.9442198000033,1582.7667571000056,1584.476115700032,1586.04195839999
main_run4,c78c8ff0-6dc5-40b6-bbdc-d03e2c14a016,114,,,ABB,circle,star,triangle,rectangle,"circle,star,star","triangle,rectangle",rectangle,"circle,triangle,rectangle,star",rectangle,,,,0,,1.00919117353306,0.8317092616621133,0.8730874027653291,0.8376647942353249,1.1493328939949576,2.026544166634128,1590.0304402000038,,,1590.5373587000067,1592.0587371000438,1593.4046048000455,1594.789977700042,1596.1395530000445,1597.8040544000105
main_run4,c78c8ff0-6dc5-40b6-bbdc-d03e2c14a016,115,,,ABB,circle,rectangle,circle,rectangle,"circle,rectangle,rectangle","circle,rectangle",rectangle,"triangle,rectangle,star,circle",rectangle,,,,0,,1.3652774871286761,0.7895598443832398,0.9751261171470578,0.9802225919213872,1.0435469174071932,2.911260550891366,1601.840386900003,,,1602.3477526000352,1604.2284461000236,1605.5307341000298,1607.0158802000224,1608.5056766000343,1610.0663718000287
main_run4,c78c8ff0-6dc5-40b6-bbdc-d03e2c14a016,116,,,ABA,triangle,star,triangle,rectangle,"triangle,star,triangle","triangle,rectangle",triangle,"star,triangle,circle,rectangle",triangle,,,,0,,1.1485827063524483,1.0479766760931337,0.6870303881085369,0.7916846028321152,0.6803532311458982,2.2746174681788336,1614.9858056000085,,,1615.4914912999957,1617.1529057000298,1618.7120604999945,1619.917407400033,1621.2232091000187,1622.4224654000136
main_run4,c78c8ff0-6dc5-40b6-bbdc-d03e2c14a016,117,,,ABB,rectangle,triangle,triangle,circle,"rectangle,triangle,triangle","triangle,circle",circle,"circle,star,triangle,rectangle",circle,,,,0,,0.7499738351079135,1.0838274875651113,0.9789679870633212,1.0112152863809492,0.9143394057260488,2.7904674651725956,1626.7076963,,,1627.2167405000073,1628.4780938000185,1630.0733539999928,1631.5670082000433,1633.0879465999897,1634.5186169000226
main_run4,c78c8ff0-6dc5-40b6-bbdc-d03e2c14a016,118,,,ABB,star,triangle,star,rectangle,"star,triangle,triangle","star,rectangle",rectangle,"star,triangle,circle,rectangle",rectangle,,,,0,,0.7688528932134117,1.011276581357207,0.8964834241696292,0.816254511111338,1.154033834699959,3.8192338932275756,1639.3198049000348,,,1639.8257060000324,1641.111474400037,1642.6348526999936,1644.0433023000369,1645.3710273000179,1647.0422514000093
main_run4,c78c8ff0-6dc5-40b6-bbdc-d03e2c14a016,119,,,ABA,circle,rectangle,triangle,rectangle,"circle,rectangle,circle","triangle,rectangle",triangle,"rectangle,circle,triangle,star",triangle,,,,0,,0.9821269606553333,0.877784212353051,0.916871177193357,0.8824667579967901,0.7583990072527302,2.045123993761037,1652.8717622000258,,,1653.378244200023,1654.8712129000342,1656.2618515000213,1657.6891671000049,1659.0836627000244,1660.3593544000178
